Folder: CutToPro-project/DSC (part 5)

File: Ruben_PLA_2003D (METTLER).txt
Ruben_PLA_2003D                                                 09.09.2021 16:00
________________________________________________________________________________

Curve Name:
  Ruben_PLA_2003D, 09.09.2021 15:21:59
  Performed 09.09.2021 15:21:59
Curve Values:
          Index              t             Ts          Value
                           [s]           [°C]           [mW]
              0              0       -99,9929        2,57761
             24             24       -92,0072        -1,9949
             48             48       -84,0184       -4,09849
             72             72       -76,0215       -3,97163
             96             96       -68,0242       -3,79725
            120            120       -60,0269       -3,65811
            144            144       -52,0299       -3,56477
            168            168       -44,0331       -3,50058
            192            192       -36,0365       -3,46112
            216            216       -28,0401       -3,43313
            240            240        -20,044       -3,42707
            264            264       -12,0481       -3,42307
            288            288       -4,05248       -3,43609
            312            312        3,94268       -3,47449
            336            336        11,9375       -3,52562
            360            360         19,932       -3,58608
            384            384        27,9264        -3,6491
            408            408        35,9203       -3,72235
            432            432        43,9137       -3,81195
            456            456         51,907        -3,8972
            480            480           59,9       -3,98786
            504            504        67,8833       -4,42663
            528            528        75,8335       -6,03271
            552            552        83,8462       -5,33347
            576            576        91,8385       -5,37199
            600            600        99,8286       -5,48266
            624            624        107,818       -5,59778
            648            648        115,807       -5,74421
            672            672        123,795       -5,89253
            696            696        131,758       -6,73936
            720            720        139,705       -7,97406
            744            744         147,65       -9,17531
            768            768        155,454       -13,9392
            792            792        163,626       -9,29315
            816            816        171,739       -6,32226
            840            840        179,746       -6,00527
            864            864        187,743         -5,942
            888            888         195,74       -5,87181
            912            912        203,737       -5,79706
            936            936        211,735       -5,73953
            960            960        219,731       -5,69569
            984            984        227,728       -5,64882
           1008           1008        235,726       -5,59488
           1032           1032        243,723       -5,55383
           1056           1056        247,637       -7,21025
           1080           1080         240,35        7,08081
           1104           1104        232,385        7,93314
           1128           1128        224,375        7,86959
           1152           1152        216,361        7,73472
           1176           1176        208,349        7,61542
           1200           1200        200,336        7,50507
           1224           1224        192,323        7,36906
           1248           1248        184,313        7,30572
           1272           1272        176,305        7,29408
           1296           1296        168,297        7,28636
           1320           1320        160,287        7,23727
           1344           1344        152,276        7,13592
           1368           1368        144,267        7,10661
           1392           1392        136,253         6,9502
           1416           1416        128,249        7,06031
           1440           1440        120,242        7,06476
           1464           1464        112,232        7,01362
           1488           1488        104,223        6,98521
           1512           1512         96,214        6,97768
           1536           1536        88,2055        6,97547
           1560           1560        80,1964        6,95778
           1584           1584        72,1877        6,95557
           1608           1608        64,1783        6,93119
           1632           1632        56,1575        6,43678
           1656           1656        48,1186        5,10138
           1680           1680        40,0999        4,53662
           1704           1704        32,0898        4,31722
           1728           1728        24,0817        4,17368
           1752           1752        16,0729        3,97702
           1776           1776        8,06516        3,80757
           1800           1800      0,0586666        3,69295
           1824           1824        -7,9463        3,66319
           1848           1848       -15,9485           3,83
           1872           1872       -23,9538        3,76716
           1896           1896       -31,9586        3,72242
           1920           1920       -39,9631        3,69568
           1944           1944       -47,9672        3,67371
           1968           1968       -55,9709        3,69339
           1992           1992        -63,974        3,78318
           2016           2016        -71,979        3,56922
           2040           2040       -79,9835        3,32876
           2064           2064       -87,9873        3,14387
           2088           2088       -95,9904        3,02412
           2112           2112       -95,9905        2,97084
           2136           2136       -87,9992       0,195448
           2160           2160       -80,0166       -3,34614
           2184           2184       -72,0195       -3,31347
           2208           2208        -64,022       -3,20952
           2232           2232       -56,0247       -3,13714
           2256           2256       -48,0278       -3,11758
           2280           2280        -40,031       -3,10528
           2304           2304       -32,0346       -3,11085
           2328           2328       -24,0381       -3,10711
           2352           2352       -16,0416       -3,09683
           2376           2376       -8,04506       -3,07368
           2400           2400      -0,048731       -3,06762
           2424           2424        7,94732       -3,07859
           2448           2448        15,9432       -3,09532
           2472           2472         23,939       -3,11978
           2496           2496        31,9344       -3,15336
           2520           2520        39,9295       -3,20091
           2544           2544        47,9234        -3,2969
           2568           2568        55,9124       -3,58065
           2592           2592        63,8629       -5,33114
           2616           2616        71,8425       -5,83606
           2640           2640        79,8371       -5,77141
           2664           2664        87,8301       -5,76896
           2688           2688        95,8241       -5,73447
           2712           2712        103,818        -5,6989
           2736           2736        111,814       -5,64351
           2760           2760        119,808       -5,60218
           2784           2784        127,803       -5,57485
           2808           2808        135,798       -5,55011
           2832           2832        143,792       -5,54807
           2856           2856        151,783       -5,62578
           2880           2880        159,781       -5,50869
           2904           2904        167,778       -5,45517
           2928           2928        175,773       -5,43563
           2952           2952        183,768       -5,42475
           2976           2976        191,762       -5,42574
           3000           3000        199,757       -5,43144
           3024           3024        207,752       -5,42324
           3048           3048        215,748       -5,40326
           3072           3072        223,744       -5,37916
           3096           3096         231,74       -5,34885
           3120           3120        239,737       -5,32197
           3144           3144        247,733       -5,30243

Results:
  Step	-99,49e-03 Wg^-1
   	-1,14 mW
  Onset	67,77 °C
  Inflect. Pt.	70,52 °C
  Midpoint	68,59 °C

  Integral	-448,95 mJ
    normalized	-39,04 Jg^-1
  Onset	145,56 °C
  Peak	157,74 °C

  Step	-0,22 Wg^-1
   	-2,49 mW
  Onset	59,24 °C
  Inflect. Pt.	63,53 °C
  Midpoint	61,78 °C

  Integral	-3,58 mJ
    normalized	-0,31 Jg^-1
  Onset	146,50 °C
  Peak	153,45 °C

Sample:
  Ruben_PLA_2003D, 11,5000 mg

________________________________________________________________________________
Not signed                                                         STARe SW 9.30