Folder: CutToPro-project/DSC (part 3)

File: PLA-4-20-Brabender.txt
Grazia_DSC_GR37                                                 19.01.2023 12:20
________________________________________________________________________________

Curve Name:
  Grazia_DSC_GR37, 19.01.2023 12:03:32
  Performed 19.01.2023 12:03:32
Curve Values:
          Index              t             Ts          Value
                           [s]           [°C]           [mW]
              0              0        -79,997       0,627492
             16             16        -74,693       -4,27505
             32             32        -69,371       -5,56467
             48             48        -64,041       -5,52474
             64             64        -58,711       -5,33692
             80             80        -53,380       -5,18062
             96             96        -48,049       -5,05663
            112            112        -42,719       -4,96308
            128            128        -37,389       -4,89412
            144            144        -32,059       -4,84425
            160            160        -26,729       -4,82006
            176            176        -21,400       -4,81801
            192            192        -16,071       -4,81813
            208            208        -10,742       -4,82346
            224            224         -5,413       -4,82607
            240            240    -83,614e-03        -4,8168
            256            256          5,246       -4,79326
            272            272         10,575       -4,79557
            288            288         15,903       -4,84712
            304            304         21,230        -4,9522
            320            320         26,554       -5,15282
            336            336         31,876       -5,45729
            352            352         37,198       -5,74706
            368            368         42,523       -5,87672
            384            384         47,854       -5,74565
            400            400         53,184       -5,68414
            416            416         58,513       -5,64702
            432            432         63,843       -5,59117
            448            448         69,173       -5,50691
            464            464         74,508       -5,30256
            480            480         79,873       -4,11633
            496            496         85,292       -1,31044
            512            512         90,521       -4,47764
            528            528         95,829       -5,09262
            544            544        101,153       -5,23688
            560            560        106,479       -5,32173
            576            576        111,805       -5,41251
            592            592        117,129       -5,52042
            608            608        122,452       -5,67435
            624            624        127,772       -5,91291
            640            640        133,075       -6,55838
            656            656        138,379       -7,14379
            672            672        143,646       -8,63622
            688            688        148,926       -9,74699
            704            704        154,407       -6,08855
            720            720        159,751       -5,72655
            736            736        165,081       -5,71023
            752            752        170,410       -5,70522
            768            768        175,739        -5,7075
            784            784        181,068        -5,7136
            800            800        186,397       -5,71826
            816            816        191,726       -5,72541
            832            832        197,055       -5,73433
            848            848        197,342       0,172177
            864            864        192,283        5,91734
            880            880        186,963        6,28753
            896            896        181,625        6,28047
            912            912        176,285        6,23954
            928            928        170,945        6,18972
            944            944        165,604        6,11855
            960            960        160,263        6,04775
            976            976        154,922         5,9888
            992            992        149,583         5,9649
           1008           1008        144,244        5,95235
           1024           1024        138,909        6,02727
           1040           1040        133,572        6,04937
           1056           1056        128,232        5,99936
           1072           1072        122,893        5,98322
           1088           1088        117,553        5,95841
           1104           1104        112,214        5,91766
           1120           1120        106,873        5,85103
           1136           1136        101,534        5,82279
           1152           1152         96,195        5,83102
           1168           1168         90,857        5,84102
           1184           1184         85,518        5,81577
           1200           1200         80,176        5,70802
           1216           1216         74,836        5,66731
           1232           1232         69,501        5,77633
           1248           1248         64,163        5,81302
           1264           1264         58,825        5,81388
           1280           1280         53,486        5,80623
           1296           1296         48,147        5,80128
           1312           1312         42,809        5,79478
           1328           1328         37,471        5,81361
           1344           1344         32,132        5,80098
           1360           1360         26,791        5,70093
           1376           1376         21,448        5,48906
           1392           1392         16,105        5,23602
           1408           1408         10,763        5,02828
           1424           1424          5,421        4,82667
           1440           1440     81,315e-03        4,68435
           1456           1456         -5,257         4,6437
           1472           1472        -10,590        4,93872
           1488           1488        -15,930        4,79856
           1504           1504        -21,268         4,7597
           1520           1520        -26,605        4,75801
           1536           1536        -31,942        4,76472
           1552           1552        -37,279        4,78535
           1568           1568        -42,616        4,80933
           1584           1584        -47,953        4,87064
           1600           1600        -53,289        4,91452
           1616           1616        -58,626         4,9792
           1632           1632        -63,962        5,03483
           1648           1648        -69,300        4,96351
           1664           1664        -74,638        4,77858
           1680           1680        -79,975        4,58305
           1696           1696        -74,680       -2,27028
           1712           1712        -69,368       -5,10861
           1728           1728        -64,039       -5,22272
           1744           1744        -58,708       -5,07125
           1760           1760        -53,378       -4,92661
           1776           1776        -48,047       -4,81613
           1792           1792        -42,716       -4,73298
[...]
           1872           1872        -16,067       -4,55987
           1888           1888        -10,738       -4,56162
           1904           1904         -5,408       -4,56391
           1920           1920    -79,324e-03       -4,56965
           1936           1936          5,250        -4,5806
           1952           1952         10,578       -4,62547
           1968           1968         15,906       -4,69292
           1984           1984         21,231       -4,86866
           2000           2000         26,554       -5,16928
           2016           2016         31,875       -5,50415
           2032           2032         37,202        -5,5781
           2048           2048         42,531       -5,51956
           2064           2064         47,861       -5,49224
           2080           2080         53,189       -5,47378
           2096           2096         58,518       -5,46987
           2112           2112         63,847       -5,45761
           2128           2128         69,176        -5,4294
           2144           2144         74,506       -5,37979
           2160           2160         79,844       -5,05893
           2176           2176         85,245       -2,79428
           2192           2192         90,656      -0,314966
           2208           2208         95,852       -4,41906
           2224           2224        101,163       -4,95487
           2240           2240        106,486       -5,11464
           2256           2256        111,811       -5,23422
           2272           2272        117,135       -5,37245
           2288           2288        122,456       -5,56778
           2304           2304        127,772       -5,90075
           2320           2320        133,053       -7,11014
           2336           2336        138,376        -7,2122
           2352           2352        143,619       -9,29297
           2368           2368        149,015       -7,60651
           2384           2384        154,428       -5,59251
           2400           2400        159,760       -5,53169
           2416           2416        165,089         -5,537
           2432           2432        170,417       -5,54937
           2448           2448        175,746       -5,55958
           2464           2464        181,075       -5,56998
           2480           2480        186,403       -5,58228
           2496           2496        191,732       -5,59398
           2512           2512        197,061       -5,60533
           2520           2520        199,725       -5,61289

Results:
  Step	-0,15 Wg^-1
  	-0,91 mW
  Onset	23,14 °C
  Inflect. Pt.	31,21 °C
  Midpoint	28,61 °C
  Angle Midpoint	31,91 °C

  Step	-0,13 Wg^-1
  	-0,85 mW
  Onset	19,78 °C
  Inflect. Pt.	27,88 °C
  Midpoint	24,84 °C
  Angle Midpoint	26,91 °C

  Integral	104,03 mJ
    normalized	16,51 Jg^-1
  Onset	78,99 °C
  Peak	84,30 °C

  Integral	-163,86 mJ
    normalized	-26,01 Jg^-1
  Onset	140,05 °C
  Peak	147,21 °C

  Integral	131,05 mJ
    normalized	20,80 Jg^-1
  Onset	83,12 °C
  Peak	89,02 °C

  Integral	-167,64 mJ
    normalized	-26,61 Jg^-1
  Onset	137,34 °C
  Peak	145,91 °C

  Extrapol. Peak	131,85 °C
    normalized	-1,11 Wg^-1
  Peak	135,28 °C

  Extrapol. Peak	134,61 °C
    normalized	-1,20 Wg^-1
  Peak	135,03 °C

  Step	-0,18 Wg^-1
  	-1,16 mW
  Onset	28,18 °C
  Inflect. Pt.	20,45 °C
  Midpoint	15,94 °C
  Angle Midpoint	16,58 °C

Sample:
  Grazia_DSC_GR37, 6,3000 mg

________________________________________________________________________________
Not signed                                                        STARe SW 16.40

File: PLA-4-20.txt
Ruben_CutestEACPLA20                                            16.11.2021 17:48
________________________________________________________________________________

Curve Name:
  Ruben_CutestEACPLA20, 16.11.2021 17:42:18
  Performed 16.11.2021 17:42:17
Curve Values:
          Index              t             Ts          Value
                           [s]           [°C]           [mW]
              0              0       -99,9943        2,07278
             21             21       -93,0142       -4,04316
             42             42       -86,0255       -5,97719
             63             63        -79,029       -5,72747
             84             84       -72,0323       -5,48371
            105            105        -65,036       -5,34178
            126            126       -58,0407       -5,33955
            147            147       -51,0461       -5,41574
            168            168       -44,0509       -5,38861
            189            189       -37,0552       -5,30731
            210            210         -30,06       -5,26993
            231            231       -23,0652       -5,25551
            252            252       -16,0704       -5,23857
            273            273       -9,07599       -5,23886
            294            294       -2,08135        -5,2221
            315            315        4,91328       -5,20771
            336            336        11,9073       -5,22765
            357            357         18,901        -5,2654
            378            378        25,8944       -5,31629
            399            399        32,8865       -5,42035
            420            420        39,8752       -5,66689
            441            441        46,8593       -6,09451
            462            462        53,8516       -6,14035
            483            483        60,8406       -6,31608
            504            504        67,8325       -6,35586
            525            525        74,8233       -6,43592
            546            546         81,813       -6,55135
            567            567        88,8039       -6,62229
            588            588        95,7944       -6,70368
            609            609        102,785       -6,77899
            630            630        109,776       -6,85074
            651            651        116,765       -6,95772
            672            672        123,751       -7,16955
            693            693        130,732       -7,50201
            714            714        137,666       -9,09654
            735            735        144,563       -11,5945
            756            756         151,41       -15,2698
            777            777        158,637       -9,17248
            798            798        165,693       -7,58052
            819            819        172,689       -7,49618
            840            840        179,683       -7,48527
            861            861        186,676       -7,49417
            882            882        193,668        -7,5284
            903            903        198,523        -10,676
            924            924        192,298        6,79552
            945            945        185,349        8,13164
            966            966        178,343        8,15998
            987            987        171,334        8,10349
           1008           1008        164,323        8,03069
           1029           1029        157,313        7,95853
           1050           1050        150,303        7,89196
           1071           1071        143,294        7,84199
           1092           1092        136,286        7,84486
           1113           1113        129,278        7,84867
           1134           1134        122,272        7,88626
           1155           1155        115,266        7,93999
           1176           1176        108,256        7,88896
           1197           1197        101,246        7,82269
           1218           1218        94,2362        7,77676
           1239           1239        87,2269        7,74433
           1260           1260         80,218        7,72302
           1281           1281        73,2091        7,70389
           1302           1302        66,2006        7,70355
           1323           1323        59,1918        7,69246
           1344           1344        52,1827        7,65961
           1365           1365        45,1705        7,48294
           1386           1386        38,1468         6,7631
           1407           1407         31,126        6,10551
           1428           1428        24,1128        5,76576
           1449           1449        17,1058        5,72017
           1470           1470        10,0987         5,6657
           1491           1491        3,09087        5,55907
           1512           1512       -3,91589        5,50683
           1533           1533       -10,9217        5,51574
           1554           1554       -17,9272        5,54024
           1575           1575       -24,9324        5,58385
           1596           1596       -31,9374        5,63594
           1617           1617       -38,9423        5,69808
           1638           1638        -45,947        5,77654
           1659           1659       -52,9516         5,8637
           1680           1680       -59,9564        5,91591
           1701           1701       -66,9621        5,83316
           1722           1722       -73,9696        5,37648
           1743           1743       -80,9751         5,1447
           1764           1764       -87,9802        4,87861
           1785           1785       -94,9845        4,72058
           1806           1806        -97,986        4,69701
           1827           1827       -90,9844         4,1879
           1848           1848       -84,0247        -5,5022
           1869           1869       -77,0311       -5,86291
           1890           1890       -70,0348       -5,68186
           1911           1911       -63,0392        -5,6094
           1932           1932       -56,0426       -5,41729
           1953           1953       -49,0485       -5,52289
           1974           1974       -42,0537       -5,52883
           1995           1995       -35,0582       -5,44153
           2016           2016       -28,0631       -5,40684
           2037           2037       -21,0683       -5,37547
           2058           2058       -14,0733       -5,33692
           2079           2079       -7,07907       -5,33829
           2100           2100      -0,085018       -5,35184
           2121           2121        6,90932       -5,34702
           2142           2142        13,9032       -5,36983
           2163           2163        20,8969       -5,39715
           2184           2184        27,8898       -5,45983
           2205           2205        34,8812       -5,59022
           2226           2226        41,8684       -5,89667
           2247           2247        48,8396       -6,85733
           2268           2268         55,815       -7,55977
           2289           2289        62,8098       -7,44086
           2310           2310        69,8014       -7,44605
           2331           2331        76,7931       -7,45091
           2352           2352        83,7854       -7,44073
           2373           2373        90,7779       -7,42573
           2394           2394        97,7702       -7,41975
           2415           2415        104,763       -7,40833
           2436           2436        111,756       -7,38766
           2457           2457         118,75         -7,351
           2478           2478        125,743       -7,33128
           2499           2499        132,736       -7,33793
           2520           2520        139,727       -7,38013
           2541           2541        146,715       -7,51449
           2562           2562        153,706       -7,55317
           2583           2583        160,701       -7,50368
           2604           2604        167,695        -7,4692
           2625           2625        174,688       -7,47679
           2646           2646        181,681       -7,49298
           2667           2667        188,673       -7,51634
           2688           2688        195,666       -7,53615
           2695           2695        197,997       -7,54231

Results:
  Step	-70,09e-03 Wg^-1
   	-0,74 mW
  Onset	36,08 °C
  Inflect. Pt.	43,20 °C
  Midpoint	40,68 °C

  Integral	-353,80 mJ
    normalized	-33,38 Jg^-1
  Onset	138,49 °C
  Peak	151,08 °C

  Step	-18,21e-03 Wg^-1
   	-0,19 mW
  Onset	-54,14 °C
  Inflect. Pt.	-51,71 °C
  Midpoint	-52,33 °C

  Step	-0,16 Wg^-1
   	-1,72 mW
  Onset	42,81 °C
  Inflect. Pt.	48,84 °C
  Midpoint	46,72 °C

  Integral	-3,12 mJ
    normalized	-0,29 Jg^-1
  Onset	144,42 °C
  Peak	150,37 °C

Sample:
  Ruben_CutestEACPLA20, 10,6000 mg

________________________________________________________________________________
Not signed                                                         STARe SW 9.30