Folder: CutToPro-project/DSC (part 4)

File: PLA-4-30-brabender.txt
ClaudiaOlga_DSC_GR39                                            23.01.2023 11:12
________________________________________________________________________________

Curve Name:
  ClaudiaOlga_DSC_GR39, 23.01.2023 11:10:36
  Performed 23.01.2023 11:10:36
Curve Values:
          Index              t             Ts          Value
                           [s]           [°C]           [mW]
              0              0        -79,996       0,758476
             16             16        -74,693        -4,3936
             32             32        -69,372       -5,69276
             48             48        -64,043       -5,70212
             64             64        -58,712       -5,51557
             80             80        -53,381       -5,31994
             96             96        -48,050       -5,15817
            112            112        -42,720        -5,0279
            128            128        -37,389       -4,93083
            144            144        -32,059       -4,85623
            160            160        -26,729       -4,78231
            176            176        -21,399       -4,73728
            192            192        -16,069       -4,70995
            208            208        -10,740       -4,68484
            224            224         -5,410        -4,6529
            240            240    -79,957e-03       -4,60615
            256            256          5,250       -4,56729
            272            272         10,579       -4,55308
            288            288         15,908       -4,56816
            304            304         21,236       -4,63025
            320            320         26,563       -4,73995
            336            336         31,888       -4,90999
            352            352         37,210       -5,20324
            368            368         42,529        -5,6138
            384            384         47,851       -5,85787
            400            400         53,181       -5,80818
            416            416         58,512       -5,70507
            432            432         63,845       -5,52503
            448            448         69,179        -5,3017
            464            464         74,529       -4,61071
            480            480         79,862        -4,4767
            496            496         85,192       -4,45349
            512            512         90,517       -4,58014
            528            528         95,842       -4,71438
            544            544        101,169       -4,76808
            560            560        106,499       -4,74817
            576            576        111,832       -4,66291
            592            592        117,164       -4,58892
            608            608        122,490       -4,67405
            624            624        127,808        -4,9627
            640            640        133,117       -5,49807
            656            656        138,412       -6,33936
            672            672        143,687       -7,62528
            688            688        148,970       -8,67336
            704            704        154,390       -6,50068
            720            720        159,767       -5,36724
            736            736        165,102       -5,24497
            752            752        170,433       -5,20572
            768            768        175,763       -5,18501
            784            784        181,093       -5,16731
            800            800        186,423       -5,15906
            816            816        191,753       -5,15997
            832            832        197,082       -5,16497
            848            848        197,341       0,155537
            864            864        192,296        6,18191
            880            880        186,978        6,59986
            896            896        181,639        6,58182
            912            912        176,298        6,53195
            928            928        170,958        6,47308
            944            944        165,616        6,40123
            960            960        160,274        6,31806
            976            976        154,933        6,25488
            992            992        149,593        6,21725
           1008           1008        144,258         6,2844
           1024           1024        138,921         6,3237
           1040           1040        133,582        6,31189
           1056           1056        128,243        6,29277
           1072           1072        122,903        6,26572
           1088           1088        117,562        6,18802
           1104           1104        112,224            6,2
           1120           1120        106,887        6,24563
           1136           1136        101,547        6,20174
           1152           1152         96,205        6,13152
           1168           1168         90,869        6,20746
           1184           1184         85,531        6,24043
           1200           1200         80,193        6,24592
           1216           1216         74,854         6,2623
           1232           1232         69,515        6,27236
           1248           1248         64,177        6,29323
           1264           1264         58,838        6,30987
           1280           1280         53,499        6,31903
           1296           1296         48,161        6,33119
           1312           1312         42,822        6,33934
           1328           1328         37,482        6,31358
           1344           1344         32,141        6,21706
           1360           1360         26,797        5,98711
           1376           1376         21,453        5,69378
           1392           1392         16,109        5,44519
           1408           1408         10,767         5,2573
           1424           1424          5,428        5,16955
           1440           1440     88,398e-03         5,0924
           1456           1456         -5,250        5,06795
           1472           1472        -10,588        5,08007
           1488           1488        -15,925        5,10238
           1504           1504        -21,263          5,114
           1520           1520        -26,600        5,12897
           1536           1536        -31,937        5,15324
           1552           1552        -37,275         5,1895
           1568           1568        -42,611        5,24969
           1584           1584        -47,948        5,31164
           1600           1600        -53,285        5,38611
           1616           1616        -58,622        5,43803
           1632           1632        -63,959        5,51961
           1648           1648        -69,294        5,74724
           1664           1664        -74,633        5,54173
           1680           1680        -79,971        5,27979
           1696           1696        -74,687       -3,30152
           1712           1712        -69,371       -5,57691
           1728           1728        -64,042       -5,61584
           1744           1744        -58,711       -5,40861
           1760           1760        -53,380       -5,21967
           1776           1776        -48,049       -5,07165
           1792           1792        -42,719       -4,95804
           1808           1808        -37,388       -4,86423
           1824           1824        -32,058       -4,79534
           1840           1840        -26,728       -4,73213
           1856           1856        -21,398       -4,69342
           1872           1872        -16,069       -4,66399
           1888           1888        -10,739       -4,63882
           1904           1904         -5,409       -4,61899
           1920           1920    -79,873e-03       -4,60126
           1936           1936          5,249       -4,59625
           1952           1952         10,578       -4,62111
           1968           1968         15,906       -4,68306
           1984           1984         21,233       -4,81009
           2000           2000         26,557       -5,03798
           2016           2016         31,878       -5,35925
           2032           2032         37,200       -5,64785
           2048           2048         42,526       -5,75539
           2064           2064         47,855       -5,70894
           2080           2080         53,185       -5,65884
           2096           2096         58,514       -5,62373
           2112           2112         63,843       -5,58985
           2128           2128         69,172       -5,54465
           2144           2144         74,503       -5,45617
           2160           2160         79,841        -5,1602
           2176           2176         85,189       -4,55438
           2192           2192         90,539       -3,92402
           2208           2208         95,881       -3,54163
           2224           2224        101,210       -3,59459
           2240           2240        106,531       -3,84938
           2256           2256        111,851       -4,13989
           2272           2272        117,167       -4,49175
           2288           2288        122,483       -4,86045
           2304           2304        127,795       -5,30789
           2320           2320        133,088       -6,22591
           2336           2336        138,367       -7,45228
           2352           2352        143,630       -9,01817
           2368           2368        148,992       -8,15116
           2384           2384        154,437       -5,37941
           2400           2400        159,775       -5,18533
           2416           2416        165,105        -5,1582
           2432           2432        170,436       -5,14018
           2448           2448        175,766       -5,12927
           2464           2464        181,096       -5,11681
           2480           2480        186,426       -5,10926
           2496           2496        191,756       -5,10286
           2512           2512        197,085       -5,10582
           2520           2520        199,750       -5,10817

Results:
  Step	-0,14 Wg^-1
  	-1,15 mW
  Onset	31,53 °C
  Inflect. Pt.	39,54 °C
  Midpoint	37,52 °C
  Angle Midpoint	39,03 °C

  Integral	43,55 mJ
    normalized	5,38 Jg^-1
  Onset	69,94 °C
  Peak	77,20 °C

  Integral	-173,67 mJ
    normalized	-21,44 Jg^-1
  Onset	132,57 °C
  Peak	149,30 °C

  Step	-0,12 Wg^-1
  	-1,00 mW
  Onset	32,92 °C
  Inflect. Pt.	23,46 °C
  Midpoint	22,54 °C
  Angle Midpoint	25,78 °C

  Step	-0,14 Wg^-1
  	-1,12 mW
  Onset	20,47 °C
  Inflect. Pt.	30,55 °C
  Midpoint	28,97 °C
  Angle Midpoint	29,76 °C

  Integral	148,92 mJ
    normalized	18,38 Jg^-1
  Onset	78,13 °C
  Peak	97,21 °C

  Integral	-162,24 mJ
    normalized	-20,03 Jg^-1
  Onset	131,75 °C
  Peak	145,62 °C

Sample:
  ClaudiaOlga_DSC_GR39, 8,1000 mg

________________________________________________________________________________
Not signed                                                        STARe SW 16.40

File: PLA-4-30.txt
Ruben_CUTESTEACEPIA30                                           30.11.2021 14:59
________________________________________________________________________________

Curve Name:
  Ruben_CUTESTEACEPIA30, 30.11.2021 13:50:01
  Performed 30.11.2021 13:50:00
Curve Values:
          Index              t             Ts          Value
                           [s]           [°C]           [mW]
              0              0       -99,9938        2,25501
             21             21       -92,9949        1,44712
             42             42       -86,0103       -2,40464
             63             63       -79,0134       -2,65201
             84             84       -72,0156       -2,65544
            105            105       -65,0187       -2,77284
            126            126       -58,0231       -3,03177
            147            147       -51,0265       -3,11121
            168            168       -44,0302       -3,19618
            189            189       -37,0338       -3,24769
            210            210       -30,0376       -3,29929
            231            231       -23,0417       -3,36125
            252            252       -16,0459       -3,41848
            273            273        -9,0504       -3,47454
            294            294        -2,0548       -3,51758
            315            315        4,94167       -3,50283
            336            336        11,9378       -3,51024
            357            357        18,9326       -3,58306
            378            378        25,9266       -3,69475
            399            399        32,9193       -3,85223
            420            420        39,9094       -4,11381
            441            441        46,8974       -4,44428
            462            462        53,8915       -4,49179
            483            483        60,8859       -4,52155
            504            504        67,8783       -4,61694
            525            525        74,8701       -4,73356
            546            546        81,8624       -4,82241
            567            567        88,8554       -4,88472
            588            588        95,8483       -4,94554
            609            609        102,841       -5,01297
            630            630        109,834       -5,05719
            651            651        116,828       -5,10004
            672            672        123,818       -5,22322
            693            693        130,801       -5,55733
            714            714        137,725       -7,48723
            735            735        144,604       -10,5048
            756            756        151,468       -13,7585
            777            777        158,727        -6,9008
            798            798        165,758       -5,98149
            819            819        172,753        -5,9531
            840            840        179,747       -5,98913
            861            861        186,739       -6,03973
            882            882        193,731       -6,10632
            903            903        198,464        -12,001
            924            924        192,222        5,05917
            945            945        185,282        6,57427
            966            966         178,28        6,66248
            987            987        171,273        6,63327
           1008           1008        164,264        6,55399
           1029           1029        157,254        6,46027
           1050           1050        150,245        6,38651
           1071           1071        143,238        6,35026
           1092           1092        136,233        6,37889
           1113           1113        129,225        6,33524
           1134           1134        122,217        6,28609
           1155           1155        115,207        6,18426
           1176           1176        108,203        6,27066
           1197           1197        101,195        6,21608
           1218           1218        94,1877         6,1795
           1239           1239        87,1813        6,18543
           1260           1260        80,1738         6,1568
           1281           1281        73,1664        6,12963
           1302           1302        66,1593        6,11847
           1323           1323        59,1522        6,10398
           1344           1344        52,1448        6,06776
           1365           1365        45,1381        6,05929
           1386           1386        38,1306        6,01612
           1407           1407        31,1183        5,73111
           1428           1428        24,0998        5,10238
           1449           1449        17,0841         4,5463
           1470           1470        10,0749        4,29714
           1491           1491         3,0674         4,1236
           1512           1512        -3,9384        4,03297
           1533           1533       -10,9436         3,9739
           1554           1554       -17,9481        3,95079
           1575           1575       -24,9525        3,92297
           1596           1596       -31,9567        3,89859
           1617           1617       -38,9607         3,8809
           1638           1638       -45,9644        3,87488
           1659           1659       -52,9676        3,92321
           1680           1680       -59,9704        4,01759
           1701           1701       -66,9731        4,13676
           1722           1722       -73,9777        3,94073
           1743           1743       -80,9851        3,08707
           1764           1764       -87,9901        2,43901
           1785           1785       -94,9926        2,25018
           1806           1806       -97,9935        2,17501
           1827           1827       -90,9633        9,86826
           1848           1848        -84,009       -2,00084
           1869           1869       -77,0162       -3,06368
           1890           1890       -70,0192       -3,12787
           1911           1911       -63,0228       -3,25622
           1932           1932       -56,0262       -3,32596
           1953           1953       -49,0281        -3,2034
           1974           1974       -42,0317       -3,25802
           1995           1995        -35,035       -3,27797
           2016           2016       -28,0387       -3,31337
           2037           2037       -21,0425       -3,34691
           2058           2058       -14,0465       -3,38614
           2079           2079       -7,05085       -3,43308
           2100           2100     -0,0552389       -3,47729
           2121           2121        6,94044       -3,51225
           2142           2142        13,9352        -3,5929
           2163           2163        20,9284       -3,74847
           2184           2184        27,9182       -4,05514
           2205           2205        34,8992       -4,74434
           2226           2226        41,8775       -5,48751
           2247           2247        48,8713       -5,50097
           2268           2268        55,8655       -5,49487
           2289           2289        62,8594       -5,50053
           2310           2310        69,8535        -5,4939
           2331           2331        76,8473       -5,49888
           2352           2352        83,8413       -5,50254
           2373           2373        90,8386       -5,39611
           2394           2394        97,8553       -4,67235
           2415           2415        104,926       -2,30086
           2436           2436        111,976      -0,725976
           2457           2457        118,922       -2,29943
           2478           2478        125,856       -4,11428
           2499           2499        132,797       -5,63895
           2520           2520        139,667       -8,98912
           2541           2541        146,597       -10,6044
           2562           2562        153,644       -9,15179
           2583           2583        160,771       -5,74652
           2604           2604        167,772       -5,59078
           2625           2625        174,767       -5,59931
           2646           2646         181,76       -5,63288
           2667           2667        188,753       -5,68008
           2688           2688        195,747       -5,70692
           2695           2695        198,078       -5,72083

Results:
  Step	-30,15e-03 Wg^-1
   	-0,36 mW
  Onset	-66,70 °C
  Inflect. Pt.	-62,02 °C
  Midpoint	-61,42 °C

  Step	-50,83e-03 Wg^-1
   	-0,61 mW
  Onset	35,31 °C
  Inflect. Pt.	42,57 °C
  Midpoint	39,54 °C

  Integral	-349,35 mJ
    normalized	-29,11 Jg^-1
  Onset	138,45 °C
  Peak	150,13 °C

  Integral	-4,40 mJ
    normalized	-0,37 Jg^-1
  Onset	-67,35 °C
  Peak	-58,03 °C

  Step	-0,15 Wg^-1
   	-1,77 mW
  Onset	27,58 °C
  Inflect. Pt.	35,90 °C
  Midpoint	33,18 °C

  Integral	15,74 mJ
    normalized	1,31 Jg^-1
  Onset	96,99 °C
  Peak	150,54 °C

Sample:
  Ruben_CUTESTEACEPIA30, 12,0000 mg

________________________________________________________________________________
Not signed                                                         STARe SW 9.30