Folder: CutToPro-project/DSC

Note: DSC/3, diAHDA.txt
Ruben_CutACE                                                    13.01.2022 13:08
________________________________________________________________________________



Curve Name:
  Ruben_CutACE, 13.01.2022 13:06:01
  Performed 13.01.2022 13:06:01
Curve Values:
          Index              t             Ts          Value
                           [s]           [°C]           [mW]
              0              0       -99,9959        1,48685
              7              7       -97,6483        6,09791
             14             14       -95,3437       -3,17465
             21             21       -93,0223       -6,35193
             28             28       -90,6935       -7,12594
             35             35       -88,3629       -7,37175
             42             42       -86,0314        -7,3439
             49             49       -83,6995       -7,24613
             56             56       -81,3677       -7,15496
             63             63       -79,0359       -7,08639
             70             70       -76,7044       -7,06756
             77             77       -74,3732       -7,09408
             84             84       -72,0424        -7,1903
             91             91       -69,7126       -7,44257
             98             98       -67,3841        -7,8681
            105            105       -65,0586        -8,6887
            112            112       -62,7349       -9,70632
            119            119       -60,4108       -10,5738
            126            126       -58,0839       -11,0115
            133            133       -55,7542       -11,0571
            140            140       -53,4224       -10,8376
            147            147       -51,0894       -10,4938
            154            154        -48,756       -10,1215
            161            161       -46,4229       -9,80029
            168            168       -44,0904        -9,5683
            175            175       -41,7588       -9,43656
            182            182       -39,4281       -9,39098
            189            189       -37,0978       -9,39821
            196            196       -34,7677       -9,41801
            203            203       -32,4377        -9,4393
            210            210       -30,1076        -9,4454
            217            217       -27,7772       -9,42632
            224            224       -25,4465       -9,37842
            231            231       -23,1154       -9,30476
            238            238       -20,7847       -9,26168
            245            245       -18,4554        -9,3238
            252            252       -16,1262       -9,39056
            259            259       -13,7955       -9,33979
            266            266       -11,4641       -9,24415
            273            273       -9,13296       -9,16546
            280            280       -6,80199       -9,10389
            287            287       -4,47059       -9,01743
    

Note: DSC/4, diAHDME.txt
Ruben_CUTESTEACE                                                13.01.2022 12:11
________________________________________________________________________________



Curve Name:
  Ruben_CUTESTEACE, 13.01.2022 12:08:47
  Performed 13.01.2022 12:08:46
Curve Values:
          Index              t             Ts          Value
                           [s]           [°C]           [mW]
              0              0       -99,9969        1,10935
              7              7       -97,6472        6,47542
             14             14        -95,344       -3,28759
             21             21       -93,0238        -6,8053
             28             28       -90,6962        -7,8575
             35             35       -88,3659        -8,1137
             42             42       -86,0347       -8,11498
             49             49       -83,7031       -8,04254
             56             56       -81,3716       -7,97235
             63             63       -79,0402       -7,92567
             70             70        -76,709       -7,92453
             77             77       -74,3781       -7,97465
             84             84       -72,0476       -8,07812
             91             91       -69,7181        -8,3274
             98             98       -67,3899       -8,75965
            105            105       -65,0639       -9,47675
            112            112       -62,7403       -10,4814
            119            119       -60,4174       -11,4785
            126            126       -58,0923        -12,115
            133            133       -55,7643       -12,3379
            140            140       -53,4341       -12,2604
            147            147       -51,1022       -11,9988
            154            154       -48,7697       -11,6685
            161            161       -46,4372       -11,3615
            168            168       -44,1052       -11,1281
            175            175       -41,7739       -10,9824
            182            182       -39,4434       -10,9136
            189            189       -37,1133       -10,8831
            196            196       -34,7832       -10,8541
            203            203       -32,4531       -10,8277
            210            210       -30,1229       -10,7903
            217            217       -27,7927        -10,747
            224            224       -25,4625       -10,7062
            231            231       -23,1323       -10,6686
            238            238       -20,8022       -10,6331
            245            245       -18,4725       -10,6313
            252            252       -16,1435       -10,6792
            259            259       -13,8149       -10,7446
            266            266       -11,4856       -10,7603
            273            273       -9,15516       -10,6962
            280            280       -6,82358       -10,5565
            287            287       -4,49125       -10,3748


File: PLA-2-30.txt
Grazia_DSC_GR32                                                 01.02.2023 15:48
________________________________________________________________________________

Curve Name:
  Grazia_DSC_GR32, 01.02.2023 14:45:34
  Performed 01.02.2023 14:45:34
Curve Values:
          Index              t             Ts          Value
                           [s]           [°C]           [mW]
              0              0        -79,997       0,586054
             16             16        -74,706       -6,53204
             32             32        -69,382       -7,10472
             48             48        -64,052       -6,88886
             64             64        -58,722       -6,67894
             80             80        -53,392       -6,49896
             96             96        -48,062       -6,34055
            112            112        -42,732        -6,2159
            128            128        -37,403       -6,11888
            144            144        -32,073       -6,02762
            160            160        -26,744       -5,95825
            176            176        -21,415       -5,90784
            192            192        -16,086       -5,84703
            208            208        -10,757        -5,8174
            224            224         -5,429       -5,79766
            240            240         -0,100        -5,7867
            256            256          5,228       -5,77763
            272            272         10,556       -5,78623
            288            288         15,883       -5,82091
            304            304         21,209       -5,92243
            320            320         26,534       -6,09099
            336            336         31,857       -6,27386
            352            352         37,182       -6,41323
            368            368         42,508        -6,4919
            384            384         47,834       -6,55413
            400            400         53,160       -6,59798
            416            416         58,486       -6,63925
            432            432         63,812       -6,70307
            448            448         69,135       -6,81742
            464            464         74,458       -6,98186
            480            480         79,780       -7,14534
            496            496         85,102       -7,27901
            512            512         90,426       -7,37148
            528            528         95,755       -7,31281
            544            544        101,079       -7,38855
            560            560        106,404       -7,45626
            576            576        111,727       -7,56626
            592            592        117,048       -7,71922
            608            608        122,367       -7,94099
            624            624        127,681       -8,26155
            640            640        132,987       -8,79316
            656            656        138,283       -9,53112
            672            672        143,556       -10,8238
            688            688        148,798       -12,7979
            704            704        154,312       -8,31766
            720            720        159,682       -7,32585
            736            736        165,015       -7,20845
            752            752        170,344       -7,18337
            768            768        175,672       -7,17413
            784            784        181,000       -7,18121
            800            800        186,327       -7,19644
            816            816        191,655       -7,19983
            832            832        196,984       -7,19276
            848            848        197,324      -0,194795
            864            864        192,321        6,70596
            880            880        187,012        7,32884
            896            896        181,676        7,37302
            912            912        176,336        7,35993
            928            928        170,996        7,32845
            944            944        165,655        7,27962
            960            960        160,312        7,17775
            976            976        154,971        7,12798
            992            992        149,630        7,09668
           1008           1008        144,294        7,15135
           1024           1024        138,958        7,24859
           1040           1040        133,620        7,26246
           1056           1056        128,281        7,27337
           1072           1072        122,941        7,25992
           1088           1088        117,599        7,20056
           1104           1104        112,260        7,21421
           1120           1120        106,922        7,25289
           1136           1136        101,582        7,24276
           1152           1152         96,240         7,1639
           1168           1168         90,903        7,23576
           1184           1184         85,566        7,32186
           1200           1200         80,226        7,33579
           1216           1216         74,886        7,34215
           1232           1232         69,547        7,34517
           1248           1248         64,207        7,35481
           1264           1264         58,867        7,36727
           1280           1280         53,524        7,23347
           1296           1296         48,170        6,70714
           1312           1312         42,819         6,2285
           1328           1328         37,472         5,8516
           1344           1344         32,131        5,76132
           1360           1360         26,792        5,74248
           1376           1376         21,454        5,74422
           1392           1392         16,115        5,71567
           1408           1408         10,776        5,68702
           1424           1424          5,437        5,68364
           1440           1440     98,871e-03        5,69572
           1456           1456         -5,239        5,72162
           1472           1472        -10,577        5,76917
           1488           1488        -15,914        5,82708
           1504           1504        -21,252        5,88713
           1520           1520        -26,589        5,96503
           1536           1536        -31,927        6,04321
           1552           1552        -37,264        6,13679
           1568           1568        -42,601        6,24655
           1584           1584        -47,938        6,36147
           1600           1600        -53,275        6,48669
           1616           1616        -58,612        6,62624
           1632           1632        -63,949        6,74182
           1648           1648        -69,288         6,7046
           1664           1664        -74,627         6,4955
           1680           1680        -79,966        6,35458
           1696           1696        -74,690       -3,79551
           1712           1712        -69,378       -6,58638
           1728           1728        -64,050       -6,63075
           1744           1744        -58,720       -6,45864
           1760           1760        -53,390       -6,28128
           1776           1776        -48,060       -6,11372
           1792           1792        -42,729       -5,96785
           1808           1808        -37,400       -5,84627
           1824           1824        -32,070       -5,74645
           1840           1840        -26,740       -5,65303
           1856           1856        -21,410       -5,57202
           1872           1872        -16,081       -5,50303
           1888           1888        -10,751        -5,4454
           1904           1904         -5,422       -5,39241
           1920           1920    -92,892e-03       -5,35128
           1936           1936          5,236       -5,32218
           1952           1952         10,565       -5,30383
           1968           1968         15,894       -5,29677
           1984           1984         21,222       -5,29881
           2000           2000         26,550       -5,33669
           2016           2016         31,879       -5,34767
           2032           2032         37,206       -5,37254
           2048           2048         42,534       -5,42156
           2064           2064         47,860       -5,52553
           2080           2080         53,179       -5,88649
           2096           2096         58,478       -6,94729
           2112           2112         63,803       -7,01731
           2128           2128         69,132       -6,93019
           2144           2144         74,460       -6,89064
           2160           2160         79,788       -6,88852
           2176           2176         85,115       -6,88599
           2192           2192         90,442       -6,88831
           2208           2208         95,769       -6,88068
           2224           2224        101,098       -6,85769
           2240           2240        106,428       -6,77822
           2256           2256        111,763       -6,56576
           2272           2272        117,105       -6,17814
           2288           2288        122,447       -5,81611
           2304           2304        127,779       -5,73324
           2320           2320        133,097       -5,98703
           2336           2336        138,409       -6,40532
           2352           2352        143,716       -6,91722
           2368           2368        148,940       -9,39196
           2384           2384        154,283       -9,01068
           2400           2400        159,693       -7,06434
           2416           2416        165,026       -6,94588
           2432           2432        170,354       -6,94833
           2448           2448        175,682       -6,96203
           2464           2464        181,009       -6,97598
           2480           2480        186,337       -6,98376
           2496           2496        191,666       -6,97778
           2512           2512        196,994       -6,98143
           2520           2520        199,658       -6,98312

Results:
  Step	-78,81e-03 Wg^-1
  	-0,64 mW
  Onset	19,93 °C
  Inflect. Pt.	27,86 °C
  Midpoint	28,65 °C
  Angle Midpoint	26,69 °C

  Step	-70,04e-03 Wg^-1
  	-0,57 mW
  Onset	66,36 °C
  Inflect. Pt.	73,79 °C
  Midpoint	75,41 °C
  Angle Midpoint	74,56 °C

  Step	-0,21 Wg^-1
  	-1,67 mW
  Onset	52,07 °C
  Inflect. Pt.	56,82 °C
  Midpoint	55,04 °C
  Angle Midpoint	56,04 °C

  Integral	-249,57 mJ
    normalized	-30,81 Jg^-1
  Onset	137,44 °C
  Peak	148,13 °C

  Integral	66,97 mJ
    normalized	8,27 Jg^-1
  Onset	108,74 °C
  Peak	126,11 °C

  Integral	-75,76 mJ
    normalized	-9,35 Jg^-1
  Onset	144,86 °C
  Peak	151,24 °C

Sample:
  Grazia_DSC_GR32, 8,1000 mg

________________________________________________________________________________
Not signed                                                        STARe SW 16.40

File: PLA-3-20 .txt
Ruben_A''cutAC                                                  08.10.2021 14:32
________________________________________________________________________________

Curve Name:
  Ruben_A''cutAC, 08.10.2021 14:27:56
  Performed 08.10.2021 14:27:56
Curve Values:
          Index              t             Ts          Value
                           [s]           [°C]           [mW]
              0              0       -99,9935        2,35628
             21             21       -93,0081       -2,31819
             42             42       -86,0207       -4,85431
             63             63        -79,024       -4,73268
             84             84       -72,0269       -4,56819
            105            105         -65,03       -4,45475
            126            126       -58,0341       -4,47538
            147            147       -51,0387       -4,54761
            168            168       -44,0435       -4,60524
            189            189       -37,0478       -4,58798
            210            210       -30,0518        -4,5497
            231            231       -23,0565        -4,5549
            252            252       -16,0615       -4,57214
            273            273       -9,06636        -4,5748
            294            294        -2,0713       -4,57647
            315            315        4,92393       -4,56824
            336            336        11,9187       -4,58871
            357            357         18,913       -4,62791
            378            378        25,9067       -4,69404
            399            399        32,8995       -4,79638
            420            420        39,8904       -4,97873
            441            441        46,8745       -5,43733
            462            462        53,8518        -6,1331
            483            483        60,8509       -5,90615
            504            504        67,8449        -5,8863
            525            525        74,8367       -5,94993
            546            546        81,8272        -6,0549
            567            567         88,818        -6,1461
            588            588        95,8089       -6,23089
            609            609          102,8       -6,30315
            630            630        109,791       -6,37433
            651            651        116,783       -6,43512
            672            672        123,772       -6,55989
            693            693         130,75       -6,99254
            714            714        137,685       -8,57574
            735            735        144,578       -11,1972
            756            756        151,449       -14,2442
            777            777        158,682       -8,02835
            798            798        165,728       -6,72012
            819            819        172,728       -6,56774
            840            840        179,723       -6,54238
            861            861        186,716       -6,56255
            882            882         193,71       -6,57886
            903            903        198,491       -11,3795
            924            924        192,278        6,34374
            945            945        185,334         7,7832
            966            966        178,328        7,80292
            987            987        171,318        7,72803
           1008           1008        164,307        7,63398
           1029           1029        157,296        7,53598
           1050           1050        150,286        7,46227
           1071           1071        143,277        7,39387
           1092           1092        136,266        7,29614
           1113           1113        129,259        7,28719
           1134           1134        122,255        7,40128
           1155           1155        115,248        7,40808
           1176           1176        108,239        7,36743
           1197           1197        101,228        7,24606
           1218           1218          94,22        7,24507
           1239           1239        87,2116        7,22039
           1260           1260        80,2031        7,19401
           1281           1281        73,1947        7,17259
           1302           1302        66,1866        7,16478
           1323           1323        59,1782        7,14975
           1344           1344        52,1699         7,1204
           1365           1365        45,1593        6,99128
           1386           1386        38,1387        6,38929
           1407           1407        31,1175        5,69492
           1428           1428        24,1044        5,33382
           1449           1449        17,0956        5,16961
           1470           1470         10,089        5,10874
           1491           1491        3,08151        4,98656
           1512           1512       -3,92504        4,90799
           1533           1533       -10,9307        4,88141
           1554           1554       -17,9357        4,89136
           1575           1575       -24,9408        4,88866
           1596           1596       -31,9454        4,91283
           1617           1617       -38,9497        4,96905
           1638           1638        -45,954        5,00713
           1659           1659       -52,9581         5,0737
           1680           1680        -59,962        5,16299
           1701           1701       -66,9668        5,11075
           1722           1722       -73,9729        4,78553
           1743           1743       -80,9785        4,43743
           1764           1764        -87,983        4,19251
           1785           1785       -94,9867        4,03189
           1806           1806       -97,9881        3,99654
           1827           1827       -90,9754        6,61267
           1848           1848       -84,0186       -4,14492
           1869           1869       -77,0252       -4,75008
           1890           1890       -70,0283       -4,61913
           1911           1911       -63,0317       -4,53494
           1932           1932       -56,0359       -4,55974
           1953           1953       -49,0388       -4,41523
           1974           1974        -42,044       -4,53049
           1995           1995       -35,0484       -4,52501
           2016           2016       -28,0523       -4,47728
           2037           2037       -21,0569       -4,47996
           2058           2058       -14,0616       -4,48083
           2079           2079       -7,06635       -4,47901
           2100           2100     -0,0712408       -4,48459
           2121           2121        6,92377       -4,49488
           2142           2142        13,9187       -4,50756
           2163           2163        20,9134       -4,53252
           2184           2184        27,9067       -4,62144
           2205           2205        34,8984       -4,77919
           2226           2226        41,8846       -5,16806
           2247           2247        48,8545       -6,21678
           2268           2268        55,8369       -6,66479
           2289           2289         62,832       -6,57334
           2310           2310        69,8248       -6,57077
           2331           2331        76,8177       -6,56599
           2352           2352        83,8112       -6,54539
           2373           2373        90,8045       -6,53682
           2394           2394        97,7978       -6,53042
           2415           2415        104,792       -6,48887
           2436           2436        111,791       -6,33596
           2457           2457        118,792       -6,11838
           2478           2478        125,789       -6,02745
           2499           2499        132,779       -6,13517
           2520           2520        139,763       -6,40041
           2541           2541        146,717       -7,45872
           2562           2562        153,723       -7,12038
           2583           2583        160,739       -6,55385
           2604           2604        167,733       -6,54009
           2625           2625        174,727       -6,54647
           2646           2646        181,721       -6,55928
           2667           2667        188,714       -6,57374
           2688           2688        195,708       -6,59382
           2695           2695        198,039       -6,60076

Results:
  Step	-86,39e-03 Wg^-1
   	-0,92 mW
  Onset	42,86 °C
  Inflect. Pt.	49,20 °C
  Midpoint	45,42 °C

  Integral	-352,50 mJ
    normalized	-32,94 Jg^-1
  Onset	136,53 °C
  Peak	151,12 °C

  Step	-0,19 Wg^-1
   	-2,03 mW
  Onset	39,61 °C
  Inflect. Pt.	47,53 °C
  Midpoint	44,94 °C

  Integral	-43,46 mJ
    normalized	-4,06 Jg^-1
  Onset	141,98 °C
  Peak	149,37 °C

Sample:
  Ruben_A''cutAC, 10,7000 mg

________________________________________________________________________________
Not signed                                                         STARe SW 9.30