Folder: CutToPro-project/DSC (part 2)

File: PLA-3-30.txt
Ruben_CutacPLA30                                                16.11.2021 14:56
________________________________________________________________________________

Curve Name:
  Ruben_CutacPLA30, 16.11.2021 14:36:20
  Performed 16.11.2021 14:36:20
Curve Values:
          Index              t             Ts          Value
                           [s]           [°C]           [mW]
              0              0       -99,9985       0,539723
             21             21       -93,0203       -5,78689
             42             42       -86,0321       -7,50987
             63             63       -79,0349       -6,87897
             84             84       -72,0382       -6,49081
            105            105        -65,044       -6,52898
            126            126       -58,0507        -6,6594
            147            147       -51,0559       -6,56055
            168            168       -44,0609       -6,44611
            189            189       -37,0652       -6,26765
            210            210       -30,0701       -6,15309
            231            231       -23,0751       -6,05567
            252            252       -16,0803       -5,97762
            273            273        -9,0859       -5,92178
            294            294        -2,0912       -5,85417
            315            315        4,90363       -5,78755
            336            336        11,8982       -5,74064
            357            357        18,8919       -5,75026
            378            378         25,884       -5,83738
            399            399        32,8716       -6,12963
            420            420        39,8456       -7,01061
            441            441        46,8183       -7,86709
            462            462        53,8189       -7,49423
            483            483        60,8206       -7,10817
            504            504        67,8204       -6,81284
            525            525        74,8332        -6,0767
            546            546        81,8646       -4,74325
            567            567        88,8571       -4,82783
            588            588        95,8217       -5,81401
            609            609        102,791       -6,57804
            630            630        109,774       -6,90354
            651            651        116,759       -7,15299
            672            672        123,741       -7,45278
            693            693        130,716       -7,93633
            714            714        137,651       -9,49919
            735            735        144,568       -11,4676
            756            756        151,407       -15,3429
            777            777        158,646       -8,94981
            798            798        165,689       -7,68511
            819            819        172,693       -7,40129
            840            840        179,689       -7,35135
            861            861        186,681       -7,37574
            882            882        193,672       -7,44815
            903            903        198,554         -9,989
            924            924        192,367        8,36339
            945            945        185,398        9,25383
            966            966        178,387        9,20259
            987            987        171,375        9,09972
           1008           1008        164,361        8,96138
           1029           1029        157,347        8,82245
           1050           1050        150,334        8,70508
           1071           1071        143,321        8,57719
           1092           1092        136,312         8,5625
           1113           1113        129,306        8,62459
           1134           1134        122,297        8,60896
           1155           1155        115,283        8,45619
           1176           1176        108,271        8,34082
           1197           1197        101,261        8,29976
           1218           1218        94,2502        8,24018
           1239           1239        87,2393        8,16671
           1260           1260        80,2287        8,10206
           1281           1281        73,2185        8,04993
           1302           1302        66,2086        8,00954
           1323           1323        59,1987        7,97135
           1344           1344        52,1889        7,91653
           1365           1365        45,1793        7,86914
           1386           1386        38,1711         7,8808
           1407           1407        31,1511        7,32011
           1428           1428        24,1303        6,65971
           1449           1449        17,1148        6,20903
           1470           1470        10,1045        5,99878
           1491           1491        3,09638        5,89623
           1512           1512        -3,9117        5,78136
           1533           1533       -10,9187        5,72271
           1554           1554        -17,925        5,70837
           1575           1575       -24,9305         5,7367
           1596           1596       -31,9359         5,7699
           1617           1617       -38,9415        5,77046
           1638           1638       -45,9472        5,75554
           1659           1659       -52,9525        5,74572
           1680           1680       -59,9574        5,78007
           1701           1701       -66,9627         5,7349
           1722           1722       -73,9701        5,28594
           1743           1743       -80,9769        4,78233
           1764           1764       -87,9822        4,38164
           1785           1785       -94,9864        4,12909
           1806           1806       -97,9883        3,95078
           1827           1827       -90,9997      0,0726994
           1848           1848       -84,0326        -7,2514
           1869           1869       -77,0365       -6,87735
           1890           1890       -70,0396       -6,45039
           1911           1911       -63,0451       -6,45588
           1932           1932       -56,0511       -6,48702
           1953           1953        -49,055       -6,25903
           1974           1974       -42,0592       -6,08909
           1995           1995       -35,0636       -5,95441
           2016           2016       -28,0687       -5,87874
           2037           2037       -21,0734       -5,78381
           2058           2058       -14,0785       -5,71443
           2079           2079       -7,08435       -5,69465
           2100           2100     -0,0897176       -5,64766
           2121           2121        6,90513       -5,59409
           2142           2142        13,8991       -5,59786
           2163           2163        20,8916       -5,67627
           2184           2184        27,8815        -5,8707
           2205           2205        34,8648       -6,36278
           2226           2226         41,839       -7,21188
           2247           2247        48,8267       -7,40656
           2268           2268        55,8209       -7,31882
           2289           2289        62,8134       -7,30128
           2310           2310        69,8061        -7,2709
           2331           2331        76,7986       -7,25574
           2352           2352        83,7911       -7,24216
           2373           2373        90,7847       -7,19711
           2394           2394        97,7867       -6,88929
           2415           2415         104,82       -5,61525
           2436           2436        111,863       -4,16085
           2457           2457         118,85       -4,41975
           2478           2478        125,808       -5,47499
           2499           2499        132,756       -6,76666
           2520           2520        139,652        -9,4125
           2541           2541        146,521       -12,6227
           2562           2562        153,683       -8,13914
           2583           2583        160,711       -7,26257
           2604           2604        167,705       -7,22577
           2625           2625        174,699       -7,22256
           2646           2646        181,692       -7,23441
           2667           2667        188,684       -7,26127
           2688           2688        195,676       -7,31202
           2695           2695        198,006       -7,33282

Results:
  Step	-0,19 Wg^-1
   	-2,25 mW
  Onset	32,48 °C
  Inflect. Pt.	40,51 °C
  Midpoint	38,11 °C

  Step	-0,17 Wg^-1
   	-2,01 mW
  Onset	87,30 °C
  Inflect. Pt.	94,16 °C
  Midpoint	95,25 °C

  Integral	-350,76 mJ
    normalized	-30,24 Jg^-1
  Onset	142,42 °C
  Peak	150,39 °C

  Step	-0,14 Wg^-1
   	-1,59 mW
  Onset	30,71 °C
  Inflect. Pt.	38,52 °C
  Midpoint	35,80 °C

  Integral	16,48 mJ
    normalized	1,42 Jg^-1
  Onset	137,62 °C
  Peak	144,51 °C

Sample:
  Ruben_CutacPLA30, 11,6000 mg

________________________________________________________________________________
Not signed                                                         STARe SW 9.30

File: PLA-3-40.txt
Grazia_DSC_GR018                                                18.11.2022 16:24
________________________________________________________________________________

Curve Name:
  Grazia_DSC_GR018, 18.11.2022 16:15:13
  Performed 18.11.2022 16:15:13
Curve Values:
          Index              t             Ts          Value
                           [s]           [°C]           [mW]
              0              0        -79,994         1,1387
             16             16        -74,689       -3,56882
             32             32        -69,372       -5,57544
             48             48        -64,044       -5,76048
             64             64        -58,713       -5,61835
             80             80        -53,383       -5,44775
             96             96        -48,053       -5,33467
            112            112        -42,723       -5,26912
            128            128        -37,393       -5,21403
            144            144        -32,064       -5,19143
            160            160        -26,735       -5,19936
            176            176        -21,406       -5,18036
            192            192        -16,076       -5,10708
            208            208        -10,746       -5,06462
            224            224         -5,417       -5,04522
            240            240    -87,819e-03       -5,00392
            256            256          5,241       -4,98116
            272            272         10,570       -4,99629
            288            288         15,898       -5,02267
            304            304         21,226       -5,05516
            320            320         26,554       -5,10032
            336            336         31,881        -5,1678
            352            352         37,208       -5,26498
            368            368         42,533       -5,39186
            384            384         47,858       -5,54867
            400            400         53,183       -5,64432
            416            416         58,511       -5,65941
            432            432         63,839       -5,66918
            448            448         69,166       -5,69919
            464            464         74,492       -5,75675
            480            480         79,818       -5,82545
            496            496         85,145       -5,87177
            512            512         90,472       -5,89607
            528            528         95,799       -5,92787
            544            544        101,125       -5,98117
            560            560        106,451       -6,06162
            576            576        111,775       -6,17205
            592            592        117,097       -6,31687
            608            608        122,418        -6,5037
            624            624        127,735       -6,79362
            640            640        133,039       -7,39078
            656            656        138,321       -8,49707
            672            672        143,581       -10,0931
            688            688        148,995       -7,98934
            704            704        154,402       -6,15204
            720            720        159,739       -5,94514
            736            736        165,069        -5,9204
            752            752        170,398       -5,90557
            768            768        175,729       -5,87044
            784            784        181,063       -5,75965
            800            800        186,393       -5,73278
            816            816        191,723       -5,72802
            832            832        197,051       -5,73539
            848            848        197,265       -1,39636
            864            864        192,262        5,40257
            880            880        186,950          5,942
            896            896        181,613        5,96592
            912            912        176,274        5,94112
            928            928        170,935        5,91305
            944            944        165,596        5,87707
            960            960        160,256        5,83996
            976            976        154,917        5,79788
            992            992        149,577        5,76606
           1008           1008        144,238        5,73999
           1024           1024        138,899        5,71394
           1040           1040        133,561        5,69909
           1056           1056        128,222        5,69621
           1072           1072        122,885        5,70725
           1088           1088        117,546        5,69654
           1104           1104        112,207        5,67312
           1120           1120        106,871        5,72065
           1136           1136        101,534        5,76206
           1152           1152         96,195        5,75651
           1168           1168         90,855        5,71249
           1184           1184         85,516        5,67635
           1200           1200         80,176        5,65539
           1216           1216         74,838         5,6459
           1232           1232         69,499        5,63672
           1248           1248         64,160        5,63031
           1264           1264         58,821        5,62491
           1280           1280         53,483        5,62471
           1296           1296         48,144        5,60069
           1312           1312         42,804         5,5377
           1328           1328         37,461         5,3326
           1344           1344         32,116        5,04227
           1360           1360         26,773        4,80643
           1376           1376         21,432        4,66609
           1392           1392         16,093        4,59251
           1408           1408         10,755         4,5535
           1424           1424          5,417        4,52202
           1440           1440     79,033e-03        4,50329
           1456           1456         -5,258         4,5113
           1472           1472        -10,595        4,54608
           1488           1488        -15,932        4,60954
           1504           1504        -21,267        4,72259
           1520           1520        -26,604        4,80768
           1536           1536        -31,940        4,85385
           1552           1552        -37,277        4,88628
           1568           1568        -42,614        4,94103
           1584           1584        -47,950        5,02962
           1600           1600        -53,286        5,17647
           1616           1616        -58,622         5,3553
           1632           1632        -63,959         5,3974
           1648           1648        -69,298        5,15879
           1664           1664        -74,637        4,76216
           1680           1680        -79,974        4,82673
           1696           1696        -74,669      -0,427482
           1712           1712        -69,363       -4,37351
           1728           1728        -64,037       -4,92966
           1744           1744        -58,710       -5,16244
           1760           1760        -53,380       -5,10132
           1776           1776        -48,049       -4,94453
           1792           1792        -42,719       -4,87617
           1808           1808        -37,389       -4,87459
           1824           1824        -32,059       -4,80892
           1840           1840        -26,729       -4,76066
           1856           1856        -21,400       -4,75979
           1872           1872        -16,071       -4,76877
           1888           1888        -10,741       -4,71567
           1904           1904         -5,410       -4,62205
           1920           1920    -80,190e-03       -4,56923
           1936           1936          5,249       -4,54686
           1952           1952         10,579       -4,52943
           1968           1968         15,908       -4,53027
           1984           1984         21,237       -4,54483
           2000           2000         26,565       -4,58888
           2016           2016         31,892       -4,68807
           2032           2032         37,216       -4,89483
           2048           2048         42,536       -5,27366
           2064           2064         47,855       -5,63277
           2080           2080         53,184       -5,63534
           2096           2096         58,513        -5,6007
           2112           2112         63,841       -5,59914
           2128           2128         69,169       -5,60735
           2144           2144         74,497        -5,6141
           2160           2160         79,825       -5,61575
           2176           2176         85,153       -5,61153
           2192           2192         90,482       -5,60178
           2208           2208         95,811       -5,59222
           2224           2224        101,139       -5,57977
           2240           2240        106,469        -5,5507
           2256           2256        111,799       -5,51799
           2272           2272        117,128       -5,49263
           2288           2288        122,457       -5,48435
           2304           2304        127,785        -5,5007
           2320           2320        133,113       -5,53672
           2336           2336        138,439       -5,60092
           2352           2352        143,758       -5,83986
           2368           2368        149,091       -5,73429
           2384           2384        154,425        -5,6181
           2400           2400        159,753       -5,61775
           2416           2416        165,082       -5,62097
           2432           2432        170,411       -5,62681
           2448           2448        175,740       -5,63518
           2464           2464        181,068       -5,64407
           2480           2480        186,397       -5,65505
           2496           2496        191,726       -5,66789
           2512           2512        197,054       -5,67826
           2520           2520        199,719       -5,68306

Results:
  Step	-59,15e-03 Wg^-1
  	-0,47 mW
  Onset	35,87 °C
  Inflect. Pt.	46,53 °C
  Midpoint	41,52 °C
  Angle Midpoint	44,42 °C

  Step	-0,12 Wg^-1
  	-0,97 mW
  Onset	42,81 °C
  Inflect. Pt.	34,12 °C
  Midpoint	33,30 °C
  Angle Midpoint	34,82 °C

  Step	-0,12 Wg^-1
  	-1,00 mW
  Onset	34,51 °C
  Inflect. Pt.	42,87 °C
  Midpoint	40,00 °C
  Angle Midpoint	40,90 °C

  Integral	-183,90 mJ
    normalized	-22,99 Jg^-1
  Onset	132,74 °C
  Peak	144,57 °C

  Integral	-7,87 mJ
    normalized	-0,98 Jg^-1
  Onset	138,79 °C
  Peak	145,42 °C

Sample:
  Grazia_DSC_GR018, 8,0000 mg

________________________________________________________________________________
Not signed                                                        STARe SW 16.40